acc_x, acc_y, angular_z, stamp, 
-0.0033235549926757812, -0.0071707963943481445, 1.9823853791443233e-06, 1759176642708595408, 
-0.053349971771240234, -0.008949756622314453, 2.622851068390448e-10, 1759176642738561617, 
0.013635218143463135, 0.009091794490814209, 3.129079299799463e-11, 1759176642768916679, 
0.013912796974182129, -0.0071326494216918945, -1.3103248549425163e-10, 1759176642799193308, 
0.006838679313659668, 0.005670368671417236, -1.742872497653288e-10, 1759176642827713457, 
-0.0505138635635376, -0.022819578647613525, -2.1355527222152935e-10, 1759176642858770272, 
0.01273876428604126, -0.004559516906738281, -4.3409044672154087e-10, 1759176642889015228, 
0.016793549060821533, 0.01369178295135498, -6.784390202356518e-10, 1759176642918982223, 
0.03129929304122925, 0.01554185152053833, 1.9744025112300855e-06, 1759176642949158131, 
0.011623382568359375, -0.004058420658111572, 1.9966898280907717e-06, 1759176642978997135, 
0.0045964717864990234, -0.010943591594696045, 1.980413937999813e-06, 1759176643009080104, 
-0.00945138931274414, 0.017888128757476807, -1.0481107815653673e-09, 1759176643039086281, 
0.0266646146774292, 0.030482709407806396, -1.1923650864909209e-09, 1759176643069393416, 
-0.009432196617126465, 0.0033770203590393066, 1.912122129881673e-06, 1759176643100549247, 
-0.03458976745605469, -0.0074770450592041016, -8.279770903131497e-10, 1759176643132873929, 
-0.005544722080230713, 0.01419687271118164, -2.2508362787278954e-06, 1759176643159367910, 
0.02515488862991333, -0.00024712085723876953, -1.0162699639525546e-09, 1759176643189546709, 
-0.007205486297607422, 0.008668661117553711, 2.504597150858023e-06, 1759176643213340143, 
1.4901161193847656e-05, -0.014709413051605225, -1.2117017695341175e-09, 1759176643249492386, 
-0.0195273756980896, 0.010509788990020752, -8.63507582682959e-10, 1759176643279576293, 
-0.013788223266601562, 0.0033617019653320312, 1.9865507007639043e-06, 1759176643309566154, 
0.009872138500213623, 0.006783545017242432, -9.315338631562278e-10, 1759176643340535295, 
-0.000810086727142334, -0.009633839130401611, -7.661975144789723e-10, 1759176643372541939, 
-0.031166553497314453, -0.02387416362762451, -8.691286959545673e-10, 1759176643399845094, 
0.005172610282897949, 0.02290421724319458, -9.059326224526476e-10, 1759176643429759910, 
0.012587547302246094, 0.002674698829650879, -6.107492135888269e-10, 1759176643489855996, 
-0.021586239337921143, -0.0029591917991638184, -3.991113797917756e-10, 1759176643520215523, 
0.01268148422241211, 0.004244446754455566, -3.623002049901855e-10, 1759176643550025149, 
0.01447916030883789, 0.018506288528442383, -2.8179255335986134e-10, 1759176643581171784, 
0.032066166400909424, 0.014702260494232178, -1.5035997299782365e-10, 1759176643612527900, 
-0.008078992366790771, -0.03041297197341919, -1.003919576740069e-11, 1759176643640197984, 
-0.004844546318054199, 0.016236603260040283, 9.551662243270555e-12, 1759176643670601790, 
-0.015710651874542236, 0.016077518463134766, 4.121637658747322e-11, 1759176643700387221, 
0.02369248867034912, 0.0030537843704223633, -1.982029459527981e-06, 1759176643730458140, 
0.0038923025131225586, -0.01150667667388916, 1.3891733234749122e-10, 1759176643759786322, 
-0.024748682975769043, -0.022305011749267578, 1.516988374631368e-10, 1759176643790534354, 
0.022111713886260986, 0.00104445219039917, 1.7332544789271182e-10, 1759176643820697229, 
-0.010162413120269775, 0.008163034915924072, 1.8636626161563476e-10, 1759176643852825749, 
-0.0012053847312927246, 0.002758800983428955, -1.996962371261844e-06, 1759176643882670485, 
0.000716865062713623, 0.02626621723175049, 1.341137110802437e-10, 1759176643949822308, 
0.0599215030670166, -0.011459589004516602, 1.2711977985102953e-10, 1759176643981015882, 
0.018193960189819336, -0.008724093437194824, -0.0005335204547570194, 1759176644011739341, 
0.6986645460128784, 0.3403286337852478, 0.021718331621887937, 1759176644043256759, 
0.00046694278717041016, 0.35521435737609863, 0.245771844907289, 1759176644071004537, 
0.34069037437438965, 0.14025837182998657, 0.40794633447411144, 1759176644100889729, 
-0.2971527576446533, 0.14721494913101196, 0.5465128328548786, 1759176644130926053, 
-0.2948017716407776, 0.42358142137527466, 0.7553449255100834, 1759176644161082684, 
1.0676950216293335, 0.16691172122955322, 0.8893719667890366, 1759176644191032030, 
-0.5354393124580383, 0.06318163871765137, 0.9656437115645763, 1759176644221098208, 
0.6667110919952393, 0.1731330156326294, 0.9996381754751223, 1759176644253227375, 
-0.37784820795059204, 0.3248075246810913, 1.1554082213757804, 1759176644284549431, 
-0.05506563186645508, 0.11841869354248047, 1.4344466115624928, 1759176644311321088, 
-0.39012831449508667, -0.0031246542930603027, 1.2693397917724856, 1759176644341267929, 
-0.20043420791625977, 0.19074267148971558, 1.0798925337201148, 1759176644364516999, 
0.5857099890708923, 0.5327652096748352, 1.4000954677881454, 1759176644401368163, 
0.7342824339866638, 0.4245230555534363, 1.4539981323940634, 1759176644431388807, 
-0.1897839903831482, -0.18047070503234863, 1.5558106161700422, 1759176644461467177, 
0.36324548721313477, 0.3899672031402588, 1.5799714336173538, 1759176644492519891, 
0.3391837477684021, 0.23936468362808228, 1.600473676915216, 1759176644525027765, 
-0.2986806035041809, 0.31617528200149536, 1.9946343861531766, 1759176644561605817, 
-0.24404609203338623, 0.4769502282142639, 1.8739545518431413, 1759176644591702054, 
-0.44539874792099, 0.25289201736450195, 1.8522238275254779, 1759176644621931167, 
-0.49819815158843994, 0.1686774492263794, 1.795219920746756, 1759176644652544137, 
-0.44776487350463867, 0.49536675214767456, 1.6940090087073707, 1759176644684574624, 
0.20478957891464233, 0.03551691770553589, 1.973245252001959, 1759176644712065422, 
-0.7859288454055786, 0.0866689682006836, 1.7991752433333892, 1759176644742101566, 
-0.214877188205719, 0.42173588275909424, 1.605450301850381, 1759176644764560237, 
-0.6037896871566772, 0.07583850622177124, 1.9148601242761871, 1759176644802071927, 
-0.16367286443710327, -0.10319459438323975, 1.783475100784825, 1759176644832174861, 
-0.44381827116012573, -0.19627130031585693, 1.6885822849885808, 1759176644862160429, 
-0.5196815729141235, -0.22520393133163452, 1.4413487288256759, 1759176644892854858, 
-0.2995717525482178, -0.02556765079498291, 1.1645121018608464, 1759176644925135393, 
-0.48842835426330566, -0.38937580585479736, 1.2304550303821489, 1759176644952328693, 
0.322704017162323, 0.01202392578125, 1.0840278494457032, 1759176644992391745, 
0.037011682987213135, 0.42335623502731323, 1.109296249798026, 1759176645023136341, 
-0.3280376195907593, 0.2181345820426941, 1.1824970702729625, 1759176645053106560, 
-0.01742953062057495, -0.03894925117492676, 1.114815209354159, 1759176645085158209, 
0.21166396141052246, -0.2317359447479248, 1.1980758028414469, 1759176645114998701, 
-0.2666754722595215, 0.4879648685455322, 1.2943048832355735, 1759176645143262196, 
0.17381185293197632, 0.45377856492996216, 1.2664293327403935, 1759176645173231024, 
0.24911963939666748, 0.10547250509262085, 1.2531662759056315, 1759176645203495708, 
0.15778714418411255, 0.13909447193145752, 1.2845810613140418, 1759176645233608283, 
0.3405463695526123, 0.4230159521102905, 1.4216125362096046, 1759176645263364204, 
0.5954546928405762, 0.4435877203941345, 1.5587589158940545, 1759176645293304256, 
0.08289504051208496, 0.3443916440010071, 1.4836351478005614, 1759176645325952910, 
0.30029940605163574, 0.04243338108062744, 1.76425626792245, 1759176645355098536, 
0.24991530179977417, 0.8424168825149536, 1.8992220958243344, 1759176645383364677, 
-0.24804723262786865, 0.03343343734741211, 1.764187785633135, 1759176645413577246, 
-0.4418914318084717, 0.16567528247833252, 1.5945956037188735, 1759176645435965688, 
-0.38673609495162964, 0.26785457134246826, 1.9382677184917716, 1759176645463426997, 
-0.11402058601379395, 0.16163218021392822, 1.7398792855494802, 1759176645493345785, 
-0.5250142812728882, 0.18582230806350708, 1.7000226464445851, 1759176645523584508, 
0.04434049129486084, 0.5059974789619446, 1.7934101935768743, 1759176645552756614, 
-0.485015332698822, 0.3432345986366272, 1.7166144425393175, 1759176645583532789, 
-0.009599864482879639, 0.3454974889755249, 1.7953088010540592, 1759176645613469449, 
-0.4069240689277649, 0.23889541625976562, 1.701214295780582, 1759176645645240125, 
-0.31592023372650146, 0.13531708717346191, 1.7335105087855096, 1759176645676565249, 
-0.5820489525794983, 0.27357882261276245, 1.9943489700849313, 1759176645703869972, 
0.006781935691833496, 0.1299557089805603, 1.8059925612940173, 1759176645733837725, 
-0.6418091654777527, 0.1559489369392395, 1.6838701083898087, 1759176645763661514, 
0.20839464664459229, -0.1955384612083435, 1.4670546786160648, 1759176645793672878, 
-0.5603768825531006, -0.34714043140411377, 1.2482807209005924, 1759176645823862953, 
-0.298206627368927, -0.026010572910308838, 1.108237425049671, 1759176645853872817, 
-0.006055176258087158, 0.009267270565032959, 1.0436458479758304, 1759176645885325065, 
-0.31989628076553345, 0.7972102761268616, 1.1031723030898404, 1759176645916509631, 
-0.10209894180297852, 0.22103196382522583, 1.2965331375521203, 1759176645944035800, 
0.16259682178497314, 0.18348103761672974, 1.2524568600736576, 1759176645974054548, 
-0.06876397132873535, 0.1091567873954773, 1.2449155834234957, 1759176646004122145, 
0.1674080491065979, 0.18064403533935547, 1.196864538161182, 1759176646034142114, 
-0.4758128523826599, 0.21418124437332153, 1.1572983386486229, 1759176646064185199, 
-0.11596089601516724, 0.01250755786895752, 1.164723714001146, 1759176646094224862, 
-0.13886815309524536, 0.15885621309280396, 1.14220661886639, 1759176646124905620, 
-0.44105684757232666, 0.020769119262695312, 1.1117401906767181, 1759176646156840263, 
-0.15515249967575073, 0.2905195355415344, 1.3157787439343314, 1759176646184429827, 
0.09137296676635742, 0.11174505949020386, 1.2296752780286129, 1759176646214571276, 
-0.3341147303581238, 0.21753060817718506, 1.2072037625478116, 1759176646244544016, 
0.09130936861038208, 0.1745346188545227, 1.1815017233725509, 1759176646274488335, 
-0.030312538146972656, 0.3780059814453125, 1.1728617168908284, 1759176646304654379, 
-0.44400137662887573, 0.019207298755645752, 1.2092217943290275, 1759176646334660879, 
0.17426133155822754, 0.2559097409248352, 1.2421129201403187, 1759176646364652597, 
-0.020427703857421875, -0.018242359161376953, 1.147243248446917, 1759176646397010469, 
0.5572142601013184, 0.11010169982910156, 1.2158166592136568, 1759176646426863111, 
0.33208560943603516, 0.10663312673568726, 1.287955049819644, 1759176646454835360, 
-0.47414863109588623, 0.3951243758201599, 1.1584910768840422, 1759176646484866679, 
-0.5749132037162781, 0.17187166213989258, 1.1667183336897216, 1759176646514964109, 
-0.2357059121131897, 0.053906917572021484, 1.2375106926494073, 1759176646545012357, 
-0.047953903675079346, 0.31032925844192505, 1.2631413789637276, 1759176646575054360, 
0.012555181980133057, 0.21275252103805542, 1.1961834588302542, 1759176646605088924, 
-0.29244762659072876, 0.3003283143043518, 1.147164194900882, 1759176646636608783, 
-0.05529522895812988, -0.013261139392852783, 1.1617242931935472, 1759176646668191523, 
-0.02098017930984497, 0.43407368659973145, 1.304616791272174, 1759176646695656519, 
-0.324304461479187, 0.1817278265953064, 1.1893591982627851, 1759176646725310988, 
-0.10304862260818481, 0.4332939386367798, 1.173043392944256, 1759176646755684157, 
-0.5915964841842651, 0.19536513090133667, 1.2136919693367305, 1759176646785430958, 
0.4207684397697449, 0.1712946891784668, 1.239925791533574, 1759176646814726213, 
-0.21357715129852295, 0.31140607595443726, 1.1497846972561068, 1759176646845584229, 
-0.4985221028327942, 0.5792818665504456, 1.1191449867711503, 1759176646877157310, 
-0.09389317035675049, -0.036134958267211914, 1.130029203085752, 1759176646909046995, 
-0.3699522614479065, 0.12027120590209961, 1.409842219917309, 1759176646934747103, 
0.0653378963470459, 0.5040736794471741, 1.1673511489239226, 1759176646965918764, 
0.1507156491279602, 0.22998565435409546, 1.224573070723852, 1759176646995750870, 
0.19924020767211914, 0.10221326351165771, 1.2098635461177774, 1759176647025863312, 
0.053331613540649414, -0.05540311336517334, 1.2158438908063285, 1759176647055887354, 
-0.29492253065109253, 0.5731309056282043, 1.1984203771692987, 1759176647085872251, 
-0.3684729337692261, -0.09294170141220093, 1.1899138845821338, 1759176647115755255, 
-0.6528578400611877, -0.19447952508926392, 1.0827748783938793, 1759176647148839628, 
1.4940060377120972, 0.7921485304832458, 1.3197400353301372, 1759176647176065737, 
-0.11571294069290161, 0.1027379035949707, 1.1867751569700873, 1759176647206060492, 
-0.3186970353126526, -0.035515785217285156, 1.201727542542298, 1759176647236173772, 
-0.3332076072692871, 0.23811358213424683, 1.214673130691195, 1759176647266179970, 
-0.3394771218299866, 0.3914228677749634, 1.1934664049891617, 1759176647296252009, 
-0.07421046495437622, 0.04598212242126465, 1.1665082799369975, 1759176647326313662, 
-0.23461884260177612, 0.1843247413635254, 1.149626702066822, 1759176647357127092, 
0.4194938540458679, 0.5333819389343262, 1.1371178716844785, 1759176647388840975, 
-0.36261171102523804, 0.10392862558364868, 1.2978267411563003, 1759176647416553590, 
0.22166943550109863, 0.29867470264434814, 1.2034261431598876, 1759176647446536167, 
0.02109706401824951, 0.21306109428405762, 1.180137874307523, 1759176647476560838, 
-0.2773330807685852, 0.707819402217865, 1.1688598093925133, 1759176647506663009, 
0.0012055635452270508, -0.20755863189697266, 1.2458419931937454, 1759176647535897679, 
-0.3426826596260071, 0.46741873025894165, 1.1897935983202899, 1759176647566677788, 
0.19653791189193726, -0.0001716017723083496, 1.2198755545587319, 1759176647596808930, 
-0.04793190956115723, -0.05929863452911377, 1.1772453244913033, 1759176647628699089, 
0.20877009630203247, 0.5981516242027283, 1.2989633001164569, 1759176647656956263, 
-0.24673938751220703, 0.15355664491653442, 1.193237781217539, 1759176647687038138, 
-0.4694393277168274, -0.04426616430282593, 1.21794379175788, 1759176647717017376, 
0.40790855884552, 0.8189234733581543, 1.2125140709711648, 1759176647746972123, 
0.4252305030822754, -0.04338657855987549, 1.1892090016758716, 1759176647777115533, 
0.09752017259597778, 0.312791109085083, 1.1833375927423377, 1759176647807293298, 
-0.035545170307159424, 0.681348443031311, 1.175359196214981, 1759176647837213923, 
-0.15654098987579346, 0.16346991062164307, 1.1055099295511228, 1759176647869111449, 
-0.46906977891921997, 0.49319708347320557, 1.1526872464139368, 1759176647900370390, 
-0.03661942481994629, 0.517536461353302, 1.3252609608095058, 1759176647937333889, 
-0.14383238554000854, 0.28981631994247437, 1.1893996604716228, 1759176647967362171, 
0.13612490892410278, 0.35180240869522095, 1.1799520054972659, 1759176647997472019, 
-0.1815369725227356, -0.1030583381652832, 1.1861288235634593, 1759176648027726508, 
-0.03751075267791748, 0.31849879026412964, 1.0804954216194367, 1759176648060555536, 
-0.29494547843933105, 0.136305570602417, 1.3288113511346407, 1759176648087541277, 
0.08015990257263184, 0.27700167894363403, 1.2072710270364129, 1759176648117687887, 
-0.3299376964569092, 0.5506135821342468, 1.2152241851723786, 1759176648147702029, 
0.41988271474838257, 0.1402139663696289, 1.2711421814448554, 1759176648176733184, 
-0.3522639870643616, 0.6000880002975464, 1.151119071220725, 1759176648207991033, 
-0.03122127056121826, -0.15182262659072876, 1.2167314985761042, 1759176648237864868, 
-0.4984150528907776, 0.6669366955757141, 1.1724861714568833, 1759176648268653394, 
-0.30237632989883423, 0.14873462915420532, 1.0649564612567215, 1759176648301110230, 
-0.45166999101638794, 0.13839274644851685, 1.202225466584467, 1759176648328382127, 
1.5741441249847412, 0.5065315961837769, 1.0913140306405782, 1759176648358454183, 
0.5569421052932739, 0.31516772508621216, 1.1418695007086221, 1759176648388535784, 
0.6785570979118347, 0.23887521028518677, 1.156015035571881, 1759176648418534844, 
-0.16040605306625366, 0.18453222513198853, 1.1783065639559727, 1759176648448629818, 
-0.20989513397216797, 0.5389276742935181, 1.192710719997055, 1759176648478650681, 
-0.34869372844696045, 0.30960291624069214, 1.2450414063299136, 1759176648507734243, 
-0.23341113328933716, 0.040727078914642334, 1.1081715162845691, 1759176648540913065, 
-0.21121525764465332, 0.3738362193107605, 1.265277057965646, 1759176648578836884, 
0.23094654083251953, 0.6423078179359436, 1.207518948978172, 1759176648608900341, 
0.2446015477180481, 0.21984291076660156, 1.24930536241673, 1759176648637718676, 
-0.08839023113250732, 0.49348026514053345, 1.153112772092258, 1759176648669057806, 
0.21384263038635254, 0.6189224123954773, 1.1220797355421124, 1759176648701094676, 
0.025413036346435547, 0.3905583620071411, 1.3450942129432892, 1759176648727730619, 
-0.1463313102722168, 0.5612834692001343, 1.1485436592485587, 1759176648758803753, 
0.5515981316566467, 0.31698423624038696, 1.2272181335968109, 1759176648787738935, 
-0.5116649866104126, 0.3721882700920105, 1.1203601401364278, 1759176648818822980, 
0.0927245020866394, 0.46182912588119507, 1.1824866248098573, 1759176648848890042, 
-0.035110294818878174, 0.08417493104934692, 1.1892757016231745, 1759176648878879937, 
-0.4156011939048767, 0.40979260206222534, 1.1856107301360879, 1759176648908938918, 
0.07012057304382324, 0.1807321310043335, 1.12011873953321, 1759176648940719802, 
-0.5759080052375793, 0.34489351511001587, 1.1511318552080632, 1759176648971320291, 
-0.7410650253295898, -0.0009496808052062988, 1.2820131253677536, 1759176648999171607, 
-0.7069710493087769, -0.19392269849777222, 1.1517152837806541, 1759176649029114538, 
-1.2360947132110596, 0.21293723583221436, 1.000793262297786, 1759176649059210344, 
-0.5092419981956482, -0.0654720664024353, 0.9190804495522733, 1759176649089321836, 
-0.10305094718933105, 0.3394789695739746, 0.849519385550531, 1759176649119339606, 
-0.5946782827377319, -0.1391381025314331, 0.7492505346818576, 1759176649149583368, 
-0.9049069285392761, -0.15799444913864136, 0.6423628064545122, 1759176649181133860, 
-0.30571115016937256, -0.03732091188430786, 0.5913732496893244, 1759176649212839735, 
0.6488351225852966, 0.3652902841567993, 0.6600589308061329, 1759176649239578977, 
0.9741497039794922, 0.40964215993881226, 0.6730922669592371, 1759176649269704480, 
0.8515221476554871, -0.09241938591003418, 0.7904474209872872, 1759176649299608969, 
0.9282887578010559, 0.20363175868988037, 0.8598884698321775, 1759176649329659208, 
0.4196264147758484, 0.5502115488052368, 0.927407539830475, 1759176649359672982, 
0.6541783213615417, 0.5043741464614868, 0.9671822325792443, 1759176649389841992, 
0.597553014755249, 0.10941517353057861, 0.9905186759439321, 1759176649421095413, 
0.8427459001541138, 0.29221010208129883, 0.9983795534650534, 1759176649453456039, 
0.08876186609268188, 0.16464322805404663, 1.1789406547834496, 1759176649490133128, 
-0.7596102356910706, 0.1607910394668579, 1.0860149752547796, 1759176649520073182, 
0.3361063003540039, 0.007489144802093506, 1.0830172166846819, 1759176649550100684, 
-0.5905958414077759, 0.3631628155708313, 1.0032638118962303, 1759176649581668714, 
-0.1687679886817932, 0.2176055908203125, 1.0667012338961221, 1759176649612156106, 
-0.20709139108657837, -0.03195452690124512, 1.1408550951903411, 1759176649640291439, 
-0.19856208562850952, 0.4252063035964966, 1.0726640575421227, 1759176649670338994, 
-0.28418171405792236, -0.21244430541992188, 1.0874718131751917, 1759176649700303351, 
-0.019984126091003418, 0.4844750761985779, 1.0782635325194245, 1759176649730345128, 
-0.222365140914917, 0.20927560329437256, 1.0544177526139256, 1759176649760355030, 
0.13122868537902832, 0.5004801154136658, 1.049317541377782, 1759176649790435183, 
0.07570987939834595, 0.30758339166641235, 1.0225374773273064, 1759176649821021599, 
-0.5334416031837463, -0.037154197692871094, 0.9985631302023458, 1759176649852852623, 
0.8329469561576843, 0.8083232641220093, 1.1541640889770037, 1759176649880668474, 
-0.04144829511642456, 0.31828051805496216, 1.047426090209625, 1759176649910657701, 
-0.2403969168663025, 0.40344125032424927, 1.1025901477120164, 1759176649939780582, 
0.1754549741744995, 0.24698889255523682, 1.0055445859445271, 1759176649970945101, 
-0.19819295406341553, 0.6583958864212036, 1.0276111419319662, 1759176650001076625, 
0.0665472149848938, 0.18869805335998535, 1.0515954579213633, 1759176650030965145, 
-0.004328250885009766, 0.1699739694595337, 1.0154391916411079, 1759176650061251773, 
-0.3018624782562256, 0.24400204420089722, 0.9320245198614676, 1759176650093573310, 
0.28995275497436523, 0.36128735542297363, 1.023434919870907, 1759176650123457367, 
-0.2896624803543091, 0.20513087511062622, 1.0858208617977123, 1759176650161159061, 
-0.4767686724662781, 0.7316291332244873, 1.0096628931277825, 1759176650191302084, 
-0.41474467515945435, -0.03628182411193848, 1.0200917504537454, 1759176650221463094, 
-0.7435615062713623, 0.15344178676605225, 0.9912964405275253, 1759176650253191024, 
0.019856810569763184, 0.36573606729507446, 1.0039644751366585, 1759176650284374065, 
-0.3549991846084595, 0.07430136203765869, 1.1260258792509128, 1759176650311417018, 
-0.8052617907524109, 0.3005625605583191, 1.0109158534319203, 1759176650341572560, 
0.5030085444450378, 0.5968443155288696, 0.8966191727787032, 1759176650364513295, 
-0.4068264961242676, 0.20503389835357666, 1.1005626265591368, 1759176650401479625, 
0.4139024615287781, 0.641573965549469, 1.0229099255491094, 1759176650431504629, 
0.2642940282821655, 0.16585862636566162, 1.021541250979525, 1759176650461582650, 
0.07418185472488403, 0.29545146226882935, 0.948802440044794, 1759176650493142474, 
0.028951168060302734, 0.32818901538848877, 0.9113868892938397, 1759176650525157660, 
0.14810293912887573, 0.3709927797317505, 1.1002271325065238, 1759176650551814045, 
0.31406325101852417, 0.5495825409889221, 0.9966670774112265, 1759176650581758207, 
-0.30329543352127075, 0.2859211564064026, 0.8217726980824421, 1759176650605432275, 
-0.029967665672302246, 0.5621428489685059, 1.0758627603449613, 1759176650641902315, 
-0.634835958480835, -0.03463011980056763, 0.9816712668501992, 1759176650671984871, 
0.11052119731903076, 0.2779885530471802, 0.9890100229653939, 1759176650701962547, 
-0.29512500762939453, 0.6198960542678833, 0.9226814382854138, 1759176650733960695, 
-0.16187477111816406, -0.005053341388702393, 0.9902260950709786, 1759176650764770641, 
-0.17673563957214355, 0.37368929386138916, 1.08460031938418, 1759176650792232502, 
-0.19501924514770508, 0.12875854969024658, 0.9776806538898923, 1759176650822180163, 
-0.31139910221099854, 0.7829259634017944, 0.8750467641379144, 1759176650843836415, 
-0.03657817840576172, -0.12480169534683228, 0.968693846246172, 1759176650882656417, 
-0.6252556443214417, 0.09015172719955444, 0.966117712831285, 1759176650902530727, 
-0.06352758407592773, 0.44793325662612915, 0.947337702458214, 1759176650942448528, 
0.11209583282470703, 0.5308585166931152, 0.9195305147612647, 1759176650973066471, 
-0.2744685411453247, 0.1278325319290161, 0.9051304711432211, 1759176651004915394, 
-0.03348463773727417, 0.06831955909729004, 1.0281883663737859, 1759176651042537038, 
-0.3708857297897339, 0.5638439059257507, 0.9506007226312616, 1759176651072675609, 
0.7720142006874084, 0.08726853132247925, 0.9566920964633129, 1759176651102608007, 
0.167913019657135, 0.4012473225593567, 0.8867362473535346, 1759176651133579446, 
-0.12210363149642944, 0.3733672499656677, 0.8772158819264896, 1759176651164886965, 
0.30391234159469604, 0.13907980918884277, 0.9935264379957184, 1759176651203673108, 
-0.19349396228790283, 0.08398020267486572, 0.9488133192169542, 1759176651233640930, 
0.3682904839515686, 0.31151020526885986, 0.9403235661335203, 1759176651263464802, 
-0.11895430088043213, 0.3160244822502136, 0.9183282797070871, 1759176651293582520, 
-0.7276818752288818, 0.38343721628189087, 0.8757249580198975, 1759176651324928798, 
0.6390374898910522, 0.5435494780540466, 0.887776929410553, 1759176651355582320, 
0.11428356170654297, -0.01922088861465454, 0.9675663988156146, 1759176651383675461, 
0.09588664770126343, 0.6073155999183655, 0.9155173308460448, 1759176651413567361, 
0.06925952434539795, 0.3850434422492981, 0.9020860941138251, 1759176651443791015, 
-0.14032530784606934, 0.11416685581207275, 0.9125151661046501, 1759176651473599078, 
-0.5169734358787537, 0.29984498023986816, 0.91427980489775, 1759176651503552408, 
0.40087974071502686, 0.2429218888282776, 0.9313172168435339, 1759176651533624387, 
-0.7101653814315796, 0.11412692070007324, 0.8830524627563008, 1759176651565294915, 
-0.2525672912597656, 0.22087997198104858, 0.8928945835844041, 1759176651596481723, 
-0.059333741664886475, 0.5128610134124756, 1.0034649704545473, 1759176651623983292, 
-0.3127487301826477, -0.33737844228744507, 0.8975172363112556, 1759176651653878048, 
0.2966843247413635, 0.4816770553588867, 0.7589744946068302, 1759176651676986761, 
-0.1263541579246521, 0.3476283550262451, 0.9611789253671642, 1759176651704387056, 
-0.03803658485412598, 0.5152273774147034, 0.8934815103611252, 1759176651734193241, 
0.3374605178833008, 0.30004793405532837, 0.7969518975098413, 1759176651756812968, 
-0.4344949722290039, 0.31738632917404175, 1.0069149194439235, 1759176651783890797, 
0.026880621910095215, 0.27473902702331543, 0.9356102725878624, 1759176651813973245, 
0.03197324275970459, 0.13102632761001587, 0.9299638773996278, 1759176651844003610, 
-0.08563637733459473, 0.5757688283920288, 0.871016793614368, 1759176651874379251, 
0.12092959880828857, 0.0812111496925354, 0.8854197855413654, 1759176651903988498, 
-0.20529276132583618, 0.11415523290634155, 0.8917247620762005, 1759176651934053910, 
0.05080986022949219, 0.16576462984085083, 0.8736067945285365, 1759176651965043272, 
-0.45040732622146606, 0.2983723282814026, 0.8451548417766805, 1759176651996910679, 
0.003720700740814209, 0.4004681706428528, 0.9781910538719466, 1759176652024191745, 
-0.15169763565063477, 0.5050567984580994, 0.9124862219776453, 1759176652053218147, 
-0.052894771099090576, -0.28336215019226074, 0.8317855177118533, 1759176652084285569, 
-0.07812350988388062, 0.4323994517326355, 0.8570786802894451, 1759176652114348136, 
-0.1808938980102539, 0.5676558613777161, 0.8697455938080413, 1759176652144450508, 
0.0698363184928894, 0.3411347270011902, 0.8620790749462883, 1759176652174506591, 
-0.05862945318222046, 0.33620333671569824, 0.8088773930026872, 1759176652205517400, 
0.2478426694869995, 0.6113051176071167, 0.7941642498034681, 1759176652237471552, 
0.005545616149902344, 0.023362278938293457, 0.9535830554473845, 1759176652264763609, 
-0.4341694116592407, 0.4622451066970825, 0.8788482592981925, 1759176652294689315, 
0.5227966904640198, 0.5835069417953491, 0.9048569720323842, 1759176652323744299, 
-0.10428065061569214, -0.13715559244155884, 0.8646281588340307, 1759176652353903398, 
-0.28031671047210693, 0.6203218698501587, 0.8483216433164968, 1759176652384826798, 
0.17430871725082397, 0.3634546399116516, 0.8469820697765489, 1759176652414974183, 
-0.04198288917541504, 0.3124277591705322, 0.8334735935152267, 1759176652445103967, 
0.3230583071708679, 0.09543484449386597, 0.7965865084999649, 1759176652477258911, 
0.12279617786407471, 0.45886731147766113, 0.851143656697852, 1759176652507305237, 
0.3515108823776245, 0.3830713629722595, 0.926345310988697, 1759176652535046589, 
0.41843944787979126, 0.1700459122657776, 0.833063014675797, 1759176652565124481, 
0.02676260471343994, 0.5037065744400024, 0.7285279585503246, 1759176652587470497, 
-0.1860073208808899, 0.015454471111297607, 0.8678858981070389, 1759176652615374759, 
-0.12420183420181274, 0.5021094083786011, 0.8168503260102694, 1759176652645253306, 
-0.5426356792449951, -0.11795377731323242, 0.8282274033209985, 1759176652675325657, 
-0.3183674216270447, 0.43820446729660034, 0.8435122085185182, 1759176652705376578, 
-0.06835716962814331, -0.03996485471725464, 0.8165380784854778, 1759176652735424007, 
-0.3371984362602234, 0.19826555252075195, 0.8089069147373608, 1759176652765466897, 
-0.04459327459335327, 0.4958113431930542, 0.7899382636683698, 1759176652796963743, 
0.22527164220809937, 0.3156701326370239, 0.7743485032053572, 1759176652828623220, 
-0.012099981307983398, 0.15273451805114746, 0.9035769599674747, 1759176652855663368, 
0.3238644599914551, 0.4538003206253052, 0.8299964184760956, 1759176652885659600, 
-0.0698348879814148, 0.16314053535461426, 0.8166225817873994, 1759176652915699919, 
-0.017014920711517334, 0.23126858472824097, 0.8499051941465127, 1759176652944719146, 
0.2444554567337036, 0.36302995681762695, 0.8157451387733573, 1759176652975761667, 
0.5059416890144348, 0.031219840049743652, 0.7965993501654268, 1759176653005831813, 
-0.3755057454109192, 0.8599889874458313, 0.7673991145406615, 1759176653036735122, 
-0.10200667381286621, -0.17152535915374756, 0.7628881643834153, 1759176653069000167, 
-0.02703857421875, 0.5989513993263245, 0.9367136385673459, 1759176653096049662, 
0.3220904469490051, 0.32055163383483887, 0.8509618849095686, 1759176653126086342, 
0.2023645043373108, 0.5077710747718811, 0.7109524366165341, 1759176653149566154, 
0.046138644218444824, 0.40502482652664185, 0.8790139664784404, 1759176653186158010, 
0.2901493310928345, 0.5286937355995178, 0.7943348905035641, 1759176653216217714, 
-0.3026238679885864, 0.1371634602546692, 0.7961311862085418, 1759176653246273897, 
-0.8293665647506714, 0.06682461500167847, 0.7897457934272747, 1759176653276987618, 
0.5263667702674866, 0.6013704538345337, 0.7428247776124322, 1759176653309025405, 
-0.17352503538131714, 0.4740217924118042, 0.830484211237451, 1759176653336699397, 
0.339561402797699, 0.35600173473358154, 0.794432463914832, 1759176653366507866, 
-0.01586216688156128, -0.08255207538604736, 0.8140382125123158, 1759176653396477193, 
-0.20784074068069458, 0.21336787939071655, 0.8054066944406826, 1759176653426597973, 
-0.19127964973449707, 0.44623833894729614, 0.8003035185233606, 1759176653456650118, 
-0.15308815240859985, 0.0750158429145813, 0.7703599035272303, 1759176653486792455, 
0.14806950092315674, 0.3362876772880554, 0.7661668914899562, 1759176653517076241, 
0.04790699481964111, 0.08005613088607788, 0.7128706414566967, 1759176653549466390, 
0.22091394662857056, 0.6344676613807678, 0.8527442781632488, 1759176653576844845, 
-0.0482216477394104, 0.43293333053588867, 0.7865309082971081, 1759176653606857574, 
0.48077505826950073, 0.19603055715560913, 0.8053472448506868, 1759176653636931633, 
-0.4621683359146118, 0.2879471778869629, 0.7680317790449084, 1759176653667157429, 
0.10034936666488647, 0.4826226830482483, 0.7748215272100534, 1759176653697260138, 
-0.382235586643219, 0.4702606201171875, 0.77814871691819, 1759176653727083112, 
-0.5645521283149719, 0.08309274911880493, 0.7667240138995354, 1759176653757152833, 
0.4462692141532898, 0.4585871696472168, 0.7337394040764098, 1759176653789157075, 
-0.12007910013198853, 0.04242199659347534, 0.7602133961604934, 1759176653819537882, 
0.1369526982307434, 0.618739128112793, 0.8363987860829906, 1759176653847295544, 
-0.22015219926834106, 0.230676531791687, 0.7550685439377816, 1759176653877305083, 
0.010119259357452393, 0.634499728679657, 0.6894676988919114, 1759176653898521720, 
0.24659496545791626, 0.10825479030609131, 0.7838240623207795, 1759176653927555208, 
0.2006971836090088, 0.2687003016471863, 0.773971609094963, 1759176653957421862, 
-0.012487649917602539, 0.43940508365631104, 0.6398357928673105, 1759176653980440302, 
0.11518263816833496, 0.6079064011573792, 0.8104012142897764, 1759176654017557225, 
0.39113813638687134, 0.018924415111541748, 0.7441558794698454, 1759176654047635206, 
0.25441545248031616, 0.10355347394943237, 0.72571066885296, 1759176654077694343, 
-0.31203728914260864, 0.5925381183624268, 0.715569618669514, 1759176654109051020, 
-0.053387582302093506, 0.030200660228729248, 0.7311037397567022, 1759176654140221166, 
-0.06368476152420044, 0.5643172860145569, 0.8241228806047798, 1759176654177806125, 
0.2976018190383911, -0.014479219913482666, 0.7688474370933117, 1759176654207909529, 
-0.603623628616333, -0.3505069613456726, 0.7441204331045039, 1759176654237908867, 
-0.06335413455963135, 0.8354710936546326, 0.7096370555811914, 1759176654269429125, 
-0.1005103588104248, -0.02578979730606079, 0.7014472925299939, 1759176654301236360, 
-0.4718959331512451, 0.23683589696884155, 0.8312829394421183, 1759176654328141077, 
0.4529147744178772, -0.03547251224517822, 0.7295586333843368, 1759176654358092414, 
0.020874321460723877, 0.44150352478027344, 0.7096528093572988, 1759176654388169304, 
-0.1764543056488037, 0.21161401271820068, 0.7296817370478359, 1759176654418251143, 
-0.1545201539993286, 0.46387672424316406, 0.7650561903851667, 1759176654448329713, 
0.12499481439590454, -0.08128738403320312, 0.7710259313004315, 1759176654478326324, 
0.10073655843734741, 0.5260531902313232, 0.7326855333396862, 1759176654508410226, 
-0.17829936742782593, 0.21803975105285645, 0.6556398203040205, 1759176654541309249, 
0.18082141876220703, 0.03182113170623779, 0.8071493606935192, 1759176654568570141, 
0.20986402034759521, 0.5784924030303955, 0.7322340069039647, 1759176654598543586, 
-0.10381358861923218, -0.1331290602684021, 0.716517164303417, 1759176654628588180, 
-0.14875471591949463, 0.4201953411102295, 0.7303723391204539, 1759176654658894498, 
0.5438109636306763, 0.5395803451538086, 0.7331342919457697, 1759176654688668564, 
0.3168019652366638, 0.0006502866744995117, 0.7401810737723482, 1759176654717752647, 
-0.6267325282096863, 0.3877546191215515, 0.6783134810427327, 1759176654749292188, 
0.3309568762779236, 0.03479814529418945, 0.6652281582580745, 1759176654781192318, 
-0.23801100254058838, 0.4789363741874695, 0.7524916508621816, 1759176654808996770, 
0.39597606658935547, 0.1303613781929016, 0.6966995826329797, 1759176654838988674, 
0.11444962024688721, 0.25923705101013184, 0.6860691641061787, 1759176654869162821, 
-0.27162718772888184, 0.14967012405395508, 0.6996271826277121, 1759176654899111330, 
0.658264696598053, 0.2209344506263733, 0.7235146594885701, 1759176654929149377, 
-0.5046194195747375, 0.13047021627426147, 0.71593958284041, 1759176654959222921, 
0.07454502582550049, 0.6421610116958618, 0.7151631145726912, 1759176654989414177, 
0.1617445945739746, 0.1537773609161377, 0.6708545614688137, 1759176655021905812, 
-0.3610970377922058, 0.09815734624862671, 0.7856621658323516, 1759176655049321286, 
0.09970974922180176, 0.10700124502182007, 0.7223264518053364, 1759176655079422141, 
-0.1317756175994873, 0.12832212448120117, 0.7438840258700716, 1759176655108385280, 
-0.09304273128509521, 0.3242749571800232, 0.6752436531712299, 1759176655139435992, 
0.40840065479278564, 0.4562375545501709, 0.6832508383091888, 1759176655169814638, 
0.19638276100158691, 0.17872631549835205, 0.6876048775199751, 1759176655199506890, 
0.07995092868804932, 0.1383931040763855, 0.6903165092671647, 1759176655229627071, 
-0.0053105950355529785, 0.3997265696525574, 0.6548314194556116, 1759176655261415926, 
-0.30124330520629883, 0.42165112495422363, 0.6624343900798456, 1759176655292422004, 
0.026649177074432373, 0.3542971611022949, 0.7525321852333664, 1759176655319809954, 
0.30644696950912476, -0.17569279670715332, 0.7058365415874948, 1759176655349845146, 
-0.3817930221557617, 0.20665192604064941, 0.6876831379334655, 1759176655379860755, 
0.22727346420288086, 0.48845410346984863, 0.6823847448361666, 1759176655410002543, 
0.2293885350227356, 0.39533138275146484, 0.6815517495068348, 1759176655440003261, 
0.09229129552841187, 0.2576447129249573, 0.6864296089162675, 1759176655470037284, 
0.036828815937042236, -0.03550082445144653, 0.6560813861599109, 1759176655501542088, 
-0.03583639860153198, 0.25903213024139404, 0.6640263216629029, 1759176655532714564, 
-0.07628995180130005, 0.40128928422927856, 0.7449024053484622, 1759176655570404403, 
-0.06117069721221924, 0.06227421760559082, 0.6897229069301601, 1759176655600193899, 
-0.17167448997497559, 0.3363785743713379, 0.6869195374411806, 1759176655630253341, 
0.10417914390563965, 0.40264785289764404, 0.6520948169662846, 1759176655660740200, 
-0.023101449012756348, 0.02015829086303711, 0.6130625163261674, 1759176655693177045, 
-0.4530113935470581, 0.029592931270599365, 0.7546259972752012, 1759176655720505467, 
0.27025359869003296, 0.3426411747932434, 0.6831528565965497, 1759176655750497852, 
-0.46102917194366455, 0.3059925436973572, 0.6679038367036793, 1759176655790594822, 
-0.2851361036300659, 0.167144775390625, 0.6435230945486697, 1759176655821309896, 
0.3177139163017273, 0.2256372570991516, 0.6149893182662738, 1759176655853767951, 
-0.11685901880264282, 0.17865115404129028, 0.7150354676781012, 1759176655881168694, 
0.20387983322143555, 0.38684117794036865, 0.6926479731816755, 1759176655909959184, 
-0.1414172649383545, -0.020838379859924316, 0.6307834493858251, 1759176655940975263, 
0.5382727980613708, 0.5474112033843994, 0.6624829858262047, 1759176655970912833, 
-0.10878360271453857, 0.023872554302215576, 0.6620705885011183, 1759176656000929510, 
-0.23067957162857056, 0.24121153354644775, 0.6586775518415926, 1759176656031098487, 
-0.09323352575302124, 0.2958040237426758, 0.6744009356338656, 1759176656061643204, 
0.20335108041763306, -0.12032783031463623, 0.6602827800667316, 1759176656093234436, 
0.20952939987182617, 0.39898473024368286, 0.7278668890099, 1759176656121369319, 
-0.050893545150756836, 0.3477857708930969, 0.6564182887064792, 1759176656151218230, 
-0.13702303171157837, 0.34974056482315063, 0.6359497669102875, 1759176656181275801, 
-0.5094778537750244, 0.17683017253875732, 0.652428193424204, 1759176656211270512, 
0.29237133264541626, 0.12039893865585327, 0.6562692690862445, 1759176656241382533, 
-0.2228071093559265, 0.00847017765045166, 0.648614727273665, 1759176656271409707, 
0.2001124620437622, 0.4768484830856323, 0.6502086651516188, 1759176656301773389, 
0.037547171115875244, 0.21652746200561523, 0.6280378934707193, 1759176656333526417, 
-0.10595083236694336, 0.1922825574874878, 0.6663555124581627, 1759176656363407040, 
0.2397264838218689, 0.23658132553100586, 0.7029567953020888, 1759176656391707539, 
-0.08108699321746826, 0.008921682834625244, 0.6508532785412068, 1759176656421587007, 
-0.20513689517974854, 0.23441410064697266, 0.5764372483005772, 1759176656444051208, 
-0.27343207597732544, 0.3735445737838745, 0.6837561260478742, 1759176656480729235, 
-0.024173319339752197, 0.3165052533149719, 0.6132333728801481, 1759176656511817630, 
0.060646653175354004, 0.2595517039299011, 0.6574170203052487, 1759176656542078713, 
0.020536065101623535, -0.09186983108520508, 0.6458104069769336, 1759176656573248438, 
0.06488853693008423, 0.12256598472595215, 0.6184005925880514, 1759176656605198853, 
0.21403127908706665, 0.2680392861366272, 0.709973036334575, 1759176656642012384, 
-0.41259050369262695, -0.2125459909439087, 0.6464544236158165, 1759176656672213880, 
0.22598415613174438, 0.49644726514816284, 0.6413638668996857, 1759176656702138722, 
-0.1670960783958435, 0.09622091054916382, 0.5979554035948308, 1759176656733655446, 
-0.6774799823760986, 0.5824853181838989, 0.5977199572386074, 1759176656765293722, 
0.5425086617469788, -0.14940720796585083, 0.7135867711918562, 1759176656792306558, 
-0.015275180339813232, 0.0822286605834961, 0.6419071464849158, 1759176656822455042, 
-0.23384857177734375, 0.43066757917404175, 0.6455409413126656, 1759176656852391596, 
-0.21393781900405884, 0.0799483060836792, 0.6432665453204901, 1759176656882387166, 
-0.4547160267829895, 0.15071779489517212, 0.6189907663998303, 1759176656912402058, 
0.02659553289413452, 0.4786913990974426, 0.6151605354859578, 1759176656942445445, 
-0.3725322484970093, -0.4720063805580139, 0.6296471329852132, 1759176656972258251, 
0.02837538719177246, 0.5201277136802673, 0.5553039095039911, 1759176657005817017, 
-0.42361146211624146, -0.46127718687057495, 0.7355908649186685, 1759176657031827012, 
-0.35777175426483154, 0.5594626665115356, 0.6253943052360198, 1759176657062916579, 
-0.3442285656929016, -0.07476115226745605, 0.6467516606169484, 1759176657092787654, 
0.17075347900390625, 0.51128751039505, 0.6363927813552032, 1759176657122953789, 
0.02842026948928833, 0.2768533229827881, 0.6277502462242622, 1759176657152868072, 
-0.5960403084754944, 0.07954657077789307, 0.6336463186096384, 1759176657183093818, 
0.6025303602218628, 0.1535128355026245, 0.6193486264182827, 1759176657213618103, 
-0.3539576530456543, 0.11516332626342773, 0.5647262099365163, 1759176657245248532, 
-0.35310155153274536, 0.3633688688278198, 0.6491251592534073, 1759176657273117249, 
0.018068909645080566, 0.24539458751678467, 0.6098964608544722, 1759176657303765654, 
-0.2745712995529175, 0.18107932806015015, 0.6350816373364243, 1759176657332725881, 
0.3838391900062561, 0.11862444877624512, 0.6238399282032794, 1759176657363797128, 
-0.24010556936264038, 0.046572208404541016, 0.6285438567894743, 1759176657393757971, 
-1.1845396757125854, 0.046289920806884766, 0.5838043797040374, 1759176657423824603, 
-1.4520343542099, 0.1637822985649109, 0.5504525640915482, 1759176657453885099, 
-1.2244504690170288, 0.22088807821273804, 0.4827796736891321, 1759176657485257334, 
-0.9838089346885681, -0.4349976181983948, 0.42364669352500084, 1759176657516102464, 
-0.10343742370605469, -0.027305960655212402, 0.4538942601454889, 1759176657543981292, 
-0.28904783725738525, 0.053311049938201904, 0.3863236971777318, 1759176657573908868, 
1.8132309913635254, 0.1294042468070984, 0.38484463729638113, 1759176657603914140, 
0.7055169939994812, 0.11866652965545654, 0.4310543786652942, 1759176657633869452, 
0.9525349736213684, 0.18888580799102783, 0.47741673320542705, 1759176657664202876, 
1.17768132686615, 0.37352216243743896, 0.5244982246446178, 1759176657694215493, 
0.9111952185630798, -0.16448062658309937, 0.5405204780204529, 1759176657725577224, 
-0.046679675579071045, 0.2856760621070862, 0.5413530423153723, 1759176657757247997, 
0.11058396100997925, 0.1888810396194458, 0.6033697679030721, 1759176657784290184, 
0.06710261106491089, 0.19517230987548828, 0.5361078638283444, 1759176657814139168, 
-0.07088500261306763, 0.025532007217407227, 0.46879359860533876, 1759176657837873789, 
0.27740269899368286, 0.28321897983551025, 0.677145197652267, 1759176657864350957, 
0.2995184063911438, 0.43173104524612427, 0.5926194703624827, 1759176657894337622, 
0.32574188709259033, 0.47058922052383423, 0.4939675289721531, 1759176657917494540, 
0.023056089878082275, 0.31141072511672974, 0.6083153802248511, 1759176657954521342, 
-0.6125144958496094, 0.3139799237251282, 0.5807753765160016, 1759176657984458529, 
0.1922033429145813, 0.46401262283325195, 0.6210916135252225, 1759176658014319830, 
0.04290974140167236, 0.4516866207122803, 0.580509966668777, 1759176658045150031, 
0.13733315467834473, 0.03818249702453613, 0.5314486959628664, 1759176658077671457, 
0.2352294921875, 0.21562731266021729, 0.6287623479760132, 1759176658114525082, 
-0.2947375178337097, -0.00943082571029663, 0.5607273188312701, 1759176658144561866, 
0.34497666358947754, 0.3300400376319885, 0.5538019568174506, 1759176658174772979, 
-0.22798383235931396, 0.06483465433120728, 0.5714654037029163, 1759176658205264064, 
-0.3565537929534912, 0.17447876930236816, 0.5584112642053705, 1759176658237505104, 
0.1065860390663147, 0.3896838426589966, 0.6539938241928889, 1759176658264769508, 
-0.2200101613998413, -0.09454858303070068, 0.6177476980772779, 1759176658293748111, 
0.0967513918876648, 0.6200084090232849, 0.5837235576196758, 1759176658324840103, 
-0.16393041610717773, 0.269173800945282, 0.5840973892049744, 1759176658354895750, 
-0.053291261196136475, 0.1253223419189453, 0.5620656818427067, 1759176658384927254, 
0.2298625111579895, -0.13744813203811646, 0.5515699509431948, 1759176658415032505, 
0.04563325643539429, 0.12763261795043945, 0.5532426064530643, 1759176658445382583, 
-0.10023945569992065, 0.36731070280075073, 0.5350473086613069, 1759176658477891685, 
0.295021116733551, -0.297174334526062, 0.6223286097204545, 1759176658515143902, 
-0.06269830465316772, -0.028686046600341797, 0.5763839689249025, 1759176658545407725, 
-0.43758171796798706, 0.6826926469802856, 0.5887706943938751, 1759176658575264727, 
-0.09045135974884033, 0.16189706325531006, 0.5924660199170687, 1759176658605689720, 
0.3380676507949829, 0.42442870140075684, 0.5727320735275045, 1759176658637551891, 
0.298209547996521, 0.30316126346588135, 0.5917430157954295, 1759176658666741835, 
-0.21017956733703613, -0.03757983446121216, 0.5730047943245852, 1759176658705454146, 
0.36529290676116943, 0.7688681483268738, 0.5796801362266044, 1759176658735463358, 
-0.22577732801437378, -0.312730610370636, 0.5686218345034704, 1759176658765550634, 
-0.4915738105773926, 0.14768505096435547, 0.5206023736161537, 1759176658797706741, 
-0.04350447654724121, 0.009625613689422607, 0.5400037767474175, 1759176658828427581, 
-0.25442028045654297, -0.10479581356048584, 0.5871173143778242, 1759176658855963828, 
-0.06914728879928589, 0.3472810983657837, 0.5575371648543485, 1759176658885779525, 
-0.12550657987594604, 0.367378294467926, 0.5516286777176006, 1759176658916016913, 
-0.3047029376029968, 0.3069837689399719, 0.5384993791361662, 1759176658945861469, 
-0.1713869571685791, 0.37880539894104004, 0.5427091584819185, 1759176658976253123, 
0.23487216234207153, -0.21328628063201904, 0.6038231352061468, 1759176659006002819, 
-0.10519570112228394, 0.2441139817237854, 0.5782395123743891, 1759176659037422877, 
0.16736513376235962, 0.19391363859176636, 0.5599588043936491, 1759176659069310651, 
-0.391517698764801, 0.06405800580978394, 0.6330329125687928, 1759176659096128619, 
-0.5596072673797607, 0.31444674730300903, 0.5722651691077877, 1759176659126159079, 
0.384164035320282, 0.3090739846229553, 0.5804951896548224, 1759176659156190093, 
-0.3526114821434021, 0.37288546562194824, 0.5527782639560851, 1759176659186235990, 
