acc_x, acc_y, angular_z, stamp, 
-0.032161593437194824, -0.0017254352569580078, -2.4857024421304736e-10, 1759176327267564429, 
0.021783769130706787, 8.177757263183594e-05, -1.996239923738621e-06, 1759176327297426396, 
-0.023114562034606934, -0.012531399726867676, -2.3852383653018967e-10, 1759176327327547977, 
-0.0069258809089660645, -0.001896679401397705, -2.4945682498104444e-10, 1759176327357499222, 
0.0038066506385803223, -0.00923144817352295, -1.9559513408167906e-06, 1759176327387977236, 
-0.03209793567657471, -0.00022739171981811523, -2.8711813640006895e-10, 1759176327419680193, 
0.03951132297515869, 0.020063042640686035, 0.00022895365507143053, 1759176327450919868, 
1.8329228162765503, -0.042141497135162354, 0.025003960473497056, 1759176327487893056, 
0.563766598701477, -0.02437293529510498, 0.004441573597058244, 1759176327517682605, 
1.2537349462509155, 0.008432507514953613, 0.0076433430491485614, 1759176327548251711, 
1.1248866319656372, 0.21299827098846436, 0.005117324275218023, 1759176327578716426, 
0.9731860160827637, -0.17220425605773926, -0.0018929946666093015, 1759176327610301668, 
0.9015775322914124, 0.030983328819274902, 0.026101445192034285, 1759176327647889434, 
0.5767536759376526, -0.09744089841842651, -0.008277597157920143, 1759176327677920054, 
1.165137529373169, -0.28418582677841187, 0.00241818186884, 1759176327708214559, 
0.7602148652076721, 0.3577130436897278, 0.00459096701594514, 1759176327739647917, 
0.7081164121627808, -0.3411920666694641, -0.004498012799718819, 1759176327771009625, 
1.1004326343536377, -0.12025469541549683, -0.025610950736862016, 1759176327808295557, 
0.9864128232002258, -0.12191158533096313, -0.02521958065467721, 1759176327838246193, 
0.6588008999824524, -0.17905622720718384, -0.015009912176856908, 1759176327868350557, 
0.8613791465759277, 0.3636506199836731, -0.004763568647355569, 1759176327899645366, 
1.1442515850067139, -0.3360402584075928, -0.006396702240828304, 1759176327931663629, 
0.5692930817604065, 0.2942560911178589, 0.01845139549841218, 1759176327957724127, 
0.5594814419746399, -0.08434730768203735, 0.03274733754369951, 1759176327988474942, 
-0.19050097465515137, -0.36229008436203003, 0.0444284757436985, 1759176328018533280, 
-0.030895471572875977, 0.053225934505462646, 0.059179348542613475, 1759176328048553528, 
-0.029090046882629395, 0.22246062755584717, 0.02031770065008091, 1759176328078617821, 
-0.11009186506271362, 0.11674386262893677, 0.005411097781289712, 1759176328108865107, 
0.6892028450965881, 0.07608246803283691, 0.0006641613808217471, 1759176328140164091, 
0.08170187473297119, -0.04331350326538086, -0.014176234573114977, 1759176328171662611, 
-0.3411220908164978, 0.35378730297088623, -0.0037419984185745442, 1759176328198948848, 
0.7443430423736572, 0.40854668617248535, -0.001120131781414381, 1759176328228877174, 
-0.23828214406967163, -0.26465117931365967, -0.018950727866972855, 1759176328253090270, 
-0.30700647830963135, 0.06714421510696411, -0.002405293240709233, 1759176328289146642, 
0.44153422117233276, 0.22371113300323486, 0.003585702086939809, 1759176328318735189, 
-0.5527406930923462, 0.16717839241027832, -0.0058591390004505165, 1759176328349387762, 
0.8328096866607666, -0.08093589544296265, 0.011726714092960255, 1759176328379934482, 
-0.17986387014389038, -0.09689408540725708, -0.02187429942095375, 1759176328411674288, 
-0.3698069453239441, 0.1997157335281372, -0.02378123962241859, 1759176328439342878, 
0.40013957023620605, -0.288737416267395, 0.01292895033738137, 1759176328469590912, 
0.14468693733215332, -0.04635566473007202, 0.003403367853517429, 1759176328499348763, 
-0.010387122631072998, 0.09868943691253662, 0.009945021188564386, 1759176328529368172, 
0.6299872994422913, 0.05202990770339966, 0.04069996532042054, 1759176328559654868, 
-0.2707067131996155, 0.13424772024154663, 0.0020159488141804406, 1759176328589550523, 
-0.339061975479126, 0.21616077423095703, -0.01366144324388159, 1759176328619627835, 
0.6237084269523621, -0.34061431884765625, 0.014883930034645136, 1759176328652497743, 
-0.2548764944076538, 0.2713189125061035, -0.00037491772869551815, 1759176328678720355, 
0.8389289379119873, 0.4260002374649048, -0.017839614847967696, 1759176328709767047, 
0.27613699436187744, -0.3058042526245117, -0.011226050514694223, 1759176328739766988, 
-0.10193562507629395, 0.08129966259002686, 0.0011204864925958796, 1759176328769798568, 
0.01203852891921997, 0.42800432443618774, -0.009026232536995285, 1759176328800172969, 
-0.04449319839477539, 0.10611993074417114, -0.024809801836948003, 1759176328829878781, 
0.16564548015594482, -0.16476988792419434, 0.014023968808988423, 1759176328860090548, 
-0.16378939151763916, 0.5384156703948975, 0.009860439865775207, 1759176328892087265, 
0.3549010157585144, -0.35910409688949585, 0.0041624698775486295, 1759176328922536147, 
0.2726471424102783, 0.0674857497215271, 0.009988393996552712, 1759176328949073414, 
-0.08758670091629028, 0.38678503036499023, 0.007982784132262537, 1759176328980158159, 
0.3946382999420166, -0.5218412280082703, -0.0002948424674962506, 1759176329010362332, 
-0.140464186668396, 0.17093706130981445, -0.004863013672518101, 1759176329040267107, 
-0.5651941895484924, -0.265422523021698, 0.009183757511527045, 1759176329070377922, 
0.6555554270744324, 0.2571936249732971, 0.04658329142436993, 1759176329100388826, 
-0.13834017515182495, -0.09632325172424316, 0.004792078996089002, 1759176329130744137, 
-0.5125051140785217, -0.4436545968055725, 0.003765575253541197, 1759176329163867545, 
0.7025010585784912, 0.1785023808479309, 0.01782686791676293, 1759176329190483418, 
-0.4196751117706299, 0.010529100894927979, -0.020184418579976403, 1759176329220636919, 
0.10356289148330688, -0.041675865650177, -0.020599419611273508, 1759176329249771762, 
0.38502341508865356, 0.009838223457336426, -0.008877365489270738, 1759176329280751355, 
-0.3287239074707031, -0.02503901720046997, -0.017814194432134816, 1759176329309831502, 
-0.28762829303741455, -0.052409827709198, -0.0015260716535458571, 1759176329340830730, 
0.4479120373725891, 0.622959554195404, 0.0305094897782839, 1759176329371802516, 
-0.3866628408432007, -0.38045549392700195, 0.015102541061953377, 1759176329403965444, 
0.25690996646881104, 0.10671353340148926, 0.028975188221575625, 1759176329441000013, 
-0.22164011001586914, 0.2996361255645752, -0.0019723014674907975, 1759176329471005056, 
-0.41701585054397583, -0.35821080207824707, 6.631783572999921e-05, 1759176329501101680, 
0.39580464363098145, -0.03933906555175781, 0.010470055688288188, 1759176329530806259, 
0.12262648344039917, -0.25945109128952026, -0.010837441928830436, 1759176329564465788, 
-0.4227370619773865, 0.19582676887512207, 0.009345962479499476, 1759176329591345404, 
0.18615347146987915, -0.0990452766418457, 0.02032671430863898, 1759176329621267632, 
-0.2497243881225586, -0.5764545798301697, 0.021520618794058494, 1759176329651403387, 
-0.35984259843826294, 0.3680136203765869, 0.010871774861636652, 1759176329681356927, 
-0.13868582248687744, -0.31539058685302734, -0.007304177594470721, 1759176329711450845, 
-0.10408055782318115, 0.015938758850097656, -0.014150229379934473, 1759176329741481412, 
0.16660934686660767, -0.07138460874557495, -0.030194111314366192, 1759176329771765196, 
0.2640497088432312, -0.17712169885635376, -0.02573886002409447, 1759176329804636631, 
-0.08247601985931396, -0.10210657119750977, -0.007562371722749019, 1759176329830750799, 
0.0501139760017395, 0.4672355055809021, 0.007030103564160797, 1759176329861628318, 
-0.48511290550231934, -0.09749960899353027, -0.000491520051049822, 1759176329891704190, 
0.4998113512992859, 0.06039595603942871, 0.03226340492417063, 1759176329921821408, 
-0.5513498187065125, -0.3428937792778015, 0.0138332130231571, 1759176329952005049, 
0.470004677772522, -0.09554111957550049, 0.014873990526900657, 1759176329982183590, 
0.20355981588363647, 0.15816420316696167, -0.00463036952065998, 1759176330012163360, 
-0.07385855913162231, -0.1995934247970581, -0.0009385667730206886, 1759176330044119951, 
0.2602752447128296, 0.13749319314956665, 0.012780976684284826, 1759176330072172695, 
-0.07352828979492188, -0.012047767639160156, -0.0016619002805205235, 1759176330101150392, 
-0.39666491746902466, -0.25062817335128784, 0.0158047835507906, 1759176330131119268, 
0.8791153430938721, 0.14580339193344116, 0.03365941663629176, 1759176330162354891, 
-0.28020721673965454, -0.21827226877212524, -0.0038505449894047027, 1759176330192201195, 
-0.613271951675415, -0.0976300835609436, -0.004431335247845376, 1759176330222270461, 
0.6735817790031433, 0.0033736228942871094, 0.013459410670394875, 1759176330252360233, 
-0.1323060393333435, 0.036900997161865234, -0.026448467057837877, 1759176330284009808, 
-0.19453388452529907, -0.24473673105239868, -0.026658799811302036, 1759176330315383713, 
0.01497727632522583, 0.356956422328949, 0.009995935066994987, 1759176330352538843, 
-0.7651048898696899, -0.2450835108757019, -0.011823427513448413, 1759176330382774707, 
0.1518726348876953, 0.11338317394256592, 0.02611436403841302, 1759176330412569274, 
-0.13119220733642578, 0.4100953936576843, 0.04385711565624888, 1759176330444697092, 
-0.6168315410614014, -0.31080126762390137, 0.020581810141036754, 1759176330475934447, 
0.07238084077835083, 0.265760600566864, 0.014785128788085425, 1759176330502818296, 
0.0644071102142334, -0.24907875061035156, -0.008868681667803191, 1759176330531746586, 
-0.10768300294876099, 0.009587764739990234, -0.004733044451354306, 1759176330562893492, 
0.023292481899261475, 0.0064383745193481445, -0.007244717116257717, 1759176330592891666, 
-0.08923983573913574, -0.3379364013671875, -0.003379380096891899, 1759176330623124729, 
-0.08642071485519409, 0.40208637714385986, 0.015292361289950044, 1759176330653002567, 
-0.1439908742904663, -0.36936312913894653, 0.0034824707317045347, 1759176330684526812, 
-0.34973716735839844, -0.12873482704162598, -0.0028783723112659216, 1759176330715905222, 
0.02774357795715332, -0.02075779438018799, -0.001492661370907061, 1759176330743135997, 
-0.0998150110244751, -0.10158830881118774, -0.014992708256123118, 1759176330773160196, 
0.13880908489227295, -0.058890342712402344, -0.031248827970919373, 1759176330803323373, 
-0.027500629425048828, 0.1520155668258667, -0.015105218432434583, 1759176330833413840, 
-0.3253844380378723, -0.08487629890441895, -0.008013730810525744, 1759176330863331282, 
0.22643542289733887, -0.0046294331550598145, 0.022831390967309836, 1759176330893425397, 
-0.5880612730979919, 0.00035637617111206055, 0.008673708324043591, 1759176330924055833, 
-0.14711391925811768, -0.17608487606048584, 0.016453128602151524, 1759176330956351114, 
0.38732194900512695, 0.09977215528488159, 0.03756425821933546, 1759176330983550017, 
-0.4651027321815491, 0.19246017932891846, 0.0018825538028679532, 1759176331013595433, 
-0.21622508764266968, 0.06986308097839355, 0.0011613160273476447, 1759176331043616163, 
-0.09673374891281128, -0.11682742834091187, -0.00040385484679928866, 1759176331074006240, 
-0.34884506464004517, -0.007130742073059082, -0.013581590088843427, 1759176331102738007, 
0.377180814743042, 0.3481748700141907, -0.0004649856425475941, 1759176331132738618, 
0.45904165506362915, -0.02248215675354004, 0.002980541538710782, 1759176331164098420, 
-0.5109190344810486, -0.1276981234550476, -0.006365543404490049, 1759176331196093169, 
0.23199403285980225, 0.030798614025115967, 0.008614939117745263, 1759176331226448101, 
-0.10254240036010742, -0.14306098222732544, -0.002377569962572577, 1759176331264016460, 
-0.6971091628074646, -0.13668525218963623, 0.00937396811604565, 1759176331294184465, 
0.6607595086097717, 0.3042430877685547, 0.01302118134235237, 1759176331324100352, 
-0.17297226190567017, -0.2594138979911804, -0.017220750584930708, 1759176331356528414, 
0.32518845796585083, 0.0865599513053894, 0.02504330159746841, 1759176331386795731, 
0.3962482213973999, -0.1256502866744995, 0.0370110169357315, 1759176331414536460, 
-0.12008792161941528, 0.03571510314941406, 0.009834414360229093, 1759176331444386253, 
0.05540043115615845, 0.510942816734314, 0.018210664092839612, 1759176331474391876, 
0.39727580547332764, -0.272322416305542, 0.0199962846731025, 1759176331504511516, 
-0.05977600812911987, 0.011925935745239258, 0.01559697951864802, 1759176331534594810, 
0.20292478799819946, 0.05780923366546631, 0.016325629610579626, 1759176331565049399, 
-0.18759262561798096, -0.5332774519920349, 0.0006194019676434051, 1759176331596448877, 
-0.3233214020729065, 0.44470590353012085, -0.0058993812268955895, 1759176331627542591, 
0.05890965461730957, -0.21919435262680054, -0.01417132612976989, 1759176331664700170, 
0.09555453062057495, 0.23239010572433472, -0.0033366620620940844, 1759176331693746434, 
0.02470153570175171, 0.26036202907562256, -0.012382347961391486, 1759176331724778848, 
-0.07974225282669067, -0.03079146146774292, -0.021027812560412085, 1759176331755912371, 
0.03217339515686035, -0.014789998531341553, -3.896103446644378e-05, 1759176331788290188, 
-0.1928781270980835, 0.3813023567199707, 0.02065298101902517, 1759176331815311997, 
-0.41324734687805176, -0.09538811445236206, -0.0054525230078900245, 1759176331845142881, 
0.15504038333892822, -0.017078638076782227, 0.0011623477243872713, 1759176331875078017, 
-0.2313176989555359, 0.29768210649490356, 0.006465329884465835, 1759176331905261563, 
0.8049378991127014, -0.13476014137268066, 0.022610004131581443, 1759176331935241914, 
0.2589847445487976, 0.2877063751220703, 0.008762258186273245, 1759176331964184598, 
-0.7853896021842957, -0.10457545518875122, 0.005300172648531218, 1759176331995134407, 
0.5480920076370239, 0.043785691261291504, 0.037903539502226045, 1759176332028144418, 
-0.7115185260772705, -0.10261273384094238, 0.005575507250570717, 1759176332065494447, 
-0.2645050287246704, -0.046763837337493896, 0.013906235783152488, 1759176332095677910, 
0.8293552994728088, 0.29464948177337646, 0.013512541939652397, 1759176332125597341, 
-0.06087082624435425, -0.2332535982131958, -0.022037958255725097, 1759176332156328292, 
-0.1766795516014099, 0.08089292049407959, -0.004698157902559171, 1759176332188102731, 
0.40884077548980713, 0.14580410718917847, 0.00980473799828445, 1759176332214712488, 
-0.8504514098167419, -0.015285253524780273, -0.014773345109365137, 1759176332245703819, 
-0.12694436311721802, 0.01643890142440796, -0.006037616123477642, 1759176332274747478, 
0.3725396394729614, 0.23483037948608398, 0.012893655752475008, 1759176332306436748, 
-0.8278435468673706, -0.214647114276886, 0.007281705702544099, 1759176332336532522, 
0.4333456754684448, -0.14742374420166016, 0.022255469674598297, 1759176332366518810, 
-0.046001315116882324, 0.2717735171318054, -0.0017123052858887115, 1759176332395813230, 
-0.49450886249542236, -0.2543484568595886, -0.003224076165037069, 1759176332428378171, 
0.4674183130264282, 0.2347847819328308, 0.026376382891963576, 1759176332458466220, 
-0.006342649459838867, -0.07028168439865112, 0.011217008545400408, 1759176332486842856, 
-0.6886545419692993, 0.003322601318359375, 0.008264058932688528, 1759176332516593464, 
0.23690944910049438, 0.1592537760734558, 0.029792011629298194, 1759176332538517723, 
-0.10115784406661987, -0.39492565393447876, 0.020013983888773856, 1759176332576624687, 
-0.046671926975250244, 0.546349287033081, 0.009691271840859356, 1759176332606696287, 
0.301862895488739, -0.43275004625320435, 0.006763119879198096, 1759176332636876790, 
-0.06032842397689819, 0.052780985832214355, -0.01715847133434729, 1759176332716817993, 
-0.15432995557785034, -0.12882405519485474, -0.008198851618073136, 1759176332748398787, 
0.010406076908111572, 0.04458695650100708, 0.002538397012105709, 1759176332779957975, 
-0.3489166498184204, 0.1452987790107727, -0.016278210479951725, 1759176332806831069, 
-0.1741465926170349, -0.19688498973846436, 0.010211310727679853, 1759176332836855837, 
0.24408698081970215, 0.021164238452911377, 0.058623218735599635, 1759176332866912724, 
-0.3497776389122009, 0.3446381688117981, 0.040387668614525835, 1759176332896937248, 
0.13736486434936523, -0.42659127712249756, -0.0022175887709306374, 1759176332926858220, 
-0.1489260196685791, 0.015108227729797363, -0.014891781951932394, 1759176332957108915, 
-0.389742374420166, 0.1493368148803711, 0.014035828317660409, 1759176332988096596, 
0.494625449180603, -0.10397523641586304, 0.012084894630604423, 1759176333019908044, 
-0.38244199752807617, -0.0808364748954773, 0.009759029723935156, 1759176333057063997, 
0.20492857694625854, 0.13519537448883057, 0.04031336211585252, 1759176333087072772, 
0.72642582654953, -0.09703713655471802, 0.009701601034023547, 1759176333117414031, 
-0.7583140134811401, 0.1983909010887146, 0.0055710181160884475, 1759176333148474182, 
1.2976455688476562, -0.3879666328430176, 0.01555618594980971, 1759176333180231073, 
0.037984371185302734, -0.08209460973739624, -0.032283552295167404, 1759176333207390480, 
-0.5259546637535095, 0.05176132917404175, -0.021419054890945272, 1759176333237379564, 
0.7869864106178284, 0.17172449827194214, 0.02126955970803944, 1759176333267414318, 
-0.2255568504333496, 0.013072729110717773, 0.012395842634700218, 1759176333297418574, 
-0.1053735613822937, 0.0375748872756958, 0.008514397410026955, 1759176333327550540, 
0.637010931968689, 0.018617570400238037, 0.0334010501253092, 1759176333357579559, 
-0.41470199823379517, 0.02521568536758423, 0.02173768642729652, 1759176333388414097, 
-0.3393893837928772, 0.3351359963417053, 0.011347764172158237, 1759176333420456921, 
0.42272812128067017, -0.28850334882736206, -0.007438171453893778, 1759176333448082299, 
-0.19462251663208008, -0.11135506629943848, -0.016646067889400172, 1759176333476731076, 
0.48225706815719604, 0.11637681722640991, 0.0037099810530495992, 1759176333507812290, 
0.028220295906066895, -0.09965181350708008, -0.003262418036307682, 1759176333537874220, 
-0.9042890071868896, 0.22738021612167358, -0.0018509997785745114, 1759176333567910094, 
0.5132797956466675, -0.01215505599975586, 0.009841079335442498, 1759176333597949092, 
-0.18266791105270386, -0.024154365062713623, 0.0025015324679325654, 1759176333628052376, 
-0.2893945574760437, 0.10776549577713013, -0.0019343215735021621, 1759176333659959244, 
0.02311152219772339, 0.06424719095230103, -0.010767365460815971, 1759176333690649739, 
-0.23818492889404297, -0.25256645679473877, -0.021536890122620472, 1759176333718148941, 
-0.16200774908065796, -0.15828156471252441, -0.02265338538983523, 1759176333740340768, 
0.1762515902519226, -0.012073874473571777, -0.01663262022256065, 1759176333771094898, 
-0.47888070344924927, 0.15356898307800293, -0.01724169843194167, 1759176333798270507, 
0.0946398377418518, -0.17433220148086548, 0.011035954034019996, 1759176333838349850, 
-0.7209400534629822, 0.3552659749984741, 0.003296840165709684, 1759176333868359029, 
0.19470322132110596, -0.2732800841331482, 0.025181403803150655, 1759176333900573361, 
-0.13456785678863525, 0.24470442533493042, 0.02943738756744388, 1759176333931478780, 
-0.7767593264579773, 0.031129002571105957, 0.00903824384795759, 1759176333958915787, 
0.6269968748092651, -0.11288332939147949, 0.0030762455501777406, 1759176333988601316, 
-0.3478904962539673, -0.13529789447784424, -0.01055660613901491, 1759176334018683385, 
-0.4195384979248047, -0.20280921459197998, 0.014169512432532186, 1759176334048707983, 
0.8524100184440613, 0.5226210951805115, 0.009030991708511342, 1759176334078765603, 
-0.42995983362197876, -0.4304754137992859, -0.013330796929333843, 1759176334108842618, 
-0.5615338087081909, -0.21309423446655273, 0.008170875522963984, 1759176334140056006, 
0.3583522439002991, 0.19208675622940063, 0.005686258387212201, 1759176334172008840, 
-0.7379530668258667, -0.12969434261322021, -0.011584180807270469, 1759176334208962460, 
0.18006539344787598, -0.00021320581436157227, 0.024159717818150385, 1759176334238965106, 
0.09687221050262451, 0.3576889634132385, 0.004183366088888615, 1759176334269051899, 
-0.4946206212043762, -0.08418309688568115, -0.012920938075411439, 1759176334300019656, 
0.6434006690979004, -0.20907938480377197, 0.017034009741392124, 1759176334332178082, 
-0.0676531195640564, 0.4452698230743408, 0.0209766360977196, 1759176334359297992, 
-0.4235703945159912, -0.25634610652923584, 0.00801987892192863, 1759176334389302012, 
0.5448459982872009, 0.0969991683959961, 0.023734272908409786, 1759176334419351277, 
-0.23594623804092407, 0.1881757378578186, 0.02975446111219998, 1759176334448345888, 
0.23620712757110596, 0.07549518346786499, 0.016431079139757304, 1759176334479443561, 
0.26617568731307983, -0.03450894355773926, -0.01064319157662603, 1759176334509498447, 
0.009213387966156006, -0.28339630365371704, 0.002109090819950202, 1759176334540471710, 
0.4445870518684387, 0.759084165096283, -0.0029956928878212856, 1759176334572244326, 
-0.05544251203536987, -0.6145342588424683, -0.016873526221839567, 1759176334599708178, 
-0.16346603631973267, 0.06371784210205078, 0.005831335472744516, 1759176334629709182, 
0.33687013387680054, -0.015840470790863037, -0.0056720930565512155, 1759176334658735936, 
0.3222934603691101, 0.18644845485687256, -0.0198440770277452, 1759176334690052064, 
-0.22067338228225708, -0.10086947679519653, -0.014238642217240888, 1759176334719867712, 
0.2056686282157898, 0.27903813123703003, 0.017519065366180912, 1759176334750195385, 
-0.05254894495010376, -0.17531836032867432, 0.009733277989464932, 1759176334780289767, 
0.04013091325759888, -0.28343528509140015, -0.0033585326036417768, 1759176334812093333, 
-0.006674528121948242, 0.10324734449386597, 1.003048583546365e-05, 1759176334850238860, 
0.514994204044342, 0.19109129905700684, 0.00027957875372698924, 1759176334880116805, 
-0.15031647682189941, -0.1926705241203308, -0.026018406081388272, 1759176334910162391, 
-0.46875423192977905, 0.09705871343612671, -0.00819125165949814, 1759176334940502648, 
0.39608776569366455, -0.1226227879524231, 0.0430366859657302, 1759176334972027142, 
-0.14622491598129272, 0.24961644411087036, 0.022286685671834807, 1759176335002868807, 
0.01881241798400879, 0.09210032224655151, 0.0016304917511213, 1759176335029474073, 
0.48072004318237305, -0.032607316970825195, -0.007889278536808627, 1759176335059593683, 
-0.08355724811553955, -0.041745007038116455, -0.023186107673857724, 1759176335090693940, 
0.5093998312950134, 0.2638435959815979, -0.004943480267639674, 1759176335120460872, 
-0.14484697580337524, 0.12453639507293701, -6.711416812293305e-05, 1759176335150530784, 
-0.47908806800842285, -0.16605091094970703, -0.01196106581702332, 1759176335180582595, 
-0.1811884045600891, -0.1896723508834839, -0.0045038520940004646, 1759176335212234903, 
0.25625723600387573, 0.25958263874053955, 0.014140602383525427, 1759176335243795440, 
-0.67637038230896, 0.02985292673110962, 1.3739788642748838e-05, 1759176335270884921, 
0.6840589046478271, -0.3837670683860779, 0.02681722970363762, 1759176335301009603, 
-0.24133384227752686, 0.21869271993637085, 0.01285559719913448, 1759176335331105763, 
-0.5953551530838013, -0.1645391583442688, 0.008471228560652867, 1759176335360964601, 
0.8667415976524353, 0.029201805591583252, 0.030446314102387784, 1759176335390725229, 
0.10562330484390259, 0.20479953289031982, 0.007705035337495614, 1759176335421072092, 
-0.03151047229766846, -0.05929124355316162, 1.560474989857166e-05, 1759176335452207959, 
0.11253654956817627, 0.010921299457550049, 0.013686310189547964, 1759176335484337883, 
-0.29863476753234863, -0.31813859939575195, 0.02148617788662296, 1759176335511325398, 
0.7419714331626892, 0.6615909337997437, 0.01568084740771476, 1759176335540728671, 
-0.006460845470428467, -0.4030587673187256, -0.002956710802121178, 1759176335571767999, 
-0.06690812110900879, 0.08509939908981323, 0.0036278006119944586, 1759176335601292680, 
0.42573684453964233, -0.1115148663520813, -0.014498917613573555, 1759176335631376412, 
0.2746986150741577, 0.23329150676727295, -0.02606152414298448, 1759176335660526225, 
0.180361807346344, 0.04894411563873291, -0.006298322584571646, 1759176335692509105, 
0.2571735978126526, -0.07079923152923584, 0.0004048365700086874, 1759176335724710390, 
-0.47476524114608765, 0.05993759632110596, -0.006486333135472935, 1759176335761589091, 
0.33170652389526367, -0.28233033418655396, 0.03093097945924706, 1759176335791701533, 
-0.3840312361717224, 0.3122670650482178, 0.02804732798559235, 1759176335820714582, 
0.21871596574783325, -0.42199957370758057, 0.008627366326336122, 1759176335852134370, 
0.30941343307495117, 0.20623677968978882, -0.01503735967517558, 1759176335884627794, 
-0.28788936138153076, -0.09473490715026855, -0.0014984377964789369, 1759176335911993304, 
0.19772952795028687, 0.1305309534072876, 0.002550363629851125, 1759176335942046841, 
-0.1848267912864685, -0.04585820436477661, -0.009045603088880768, 1759176335971941509, 
-0.6879266500473022, -0.5162206888198853, 0.02464142290682656, 1759176336001971271, 
0.9112130403518677, 0.5549494028091431, 0.027779307487008027, 1759176336032081908, 
-0.4528818726539612, -0.36258357763290405, -0.008233459474249019, 1759176336062066622, 
-0.6448948383331299, -0.018479466438293457, 0.0007330297444423747, 1759176336092195996, 
0.6898042559623718, -0.18888616561889648, -0.005067618882428558, 1759176336124572942, 
0.08165788650512695, 0.22405874729156494, -0.03591473013786146, 1759176336155069065, 
-0.1753906011581421, 0.057305753231048584, -0.023082429156584483, 1759176336182459754, 
0.9340901374816895, -0.21172571182250977, 0.016075823207502175, 1759176336212601751, 
-0.6473466157913208, 0.2116527557373047, -0.011197455891495279, 1759176336242398049, 
-0.02825617790222168, -0.0568772554397583, 0.007860828520094402, 1759176336272522522, 
0.29000818729400635, 0.039812326431274414, 0.03609576162410233, 1759176336302585081, 
